File: crystallography/Input_XRD.txt
72.788 0.01938
72.79 0.01938
72.792 0.01938
72.794 0.02584
72.796 0.0323
72.798 0.00646
72.8 0.03876
72.802 0.01292
72.804 0.01292
72.806 0.04521
72.808 0.05167
72.81 0.02584
72.812 0.01938
72.814 0.03876
72.816 0.0323
72.818 0.0323
72.82 0.04521
72.822 0.05167
72.824 0.05813
72.826 0.04521
72.828 0.01938
72.83 0.02584
72.832 0.03876
72.834 0.02584
72.836 0.01938
72.838 0.04521
72.84 0.05813
72.842 0.0323
72.844 0.01938
72.846 0.05813
72.848 0.04521
72.85 0.02584
72.852 0.02584
72.854 0.06459
72.856 0.05813
72.858 0.0323
72.86 0.05813
72.862 0.03876
72.864 0.04521
72.866 0.06459
72.868 0.05167
72.87 0.05167
72.872 0.03876
72.874 0.07751
72.876 0.09043
72.878 0.05813
72.88 0.04521
72.882 0.05813
72.884 0.07751
72.886 0.07105
72.888 0.05167
72.89 0.05167
72.892 0.09043
72.894 0.11627
72.896 0.07751
72.898 0.07105
72.9 0.09043
72.902 0.06459
72.904 0.08397
72.906 0.07751
72.908 0.07105
72.91 0.06459
72.912 0.04521
72.914 0.07751
72.916 0.08397
72.918 0.11627
72.92 0.12273
72.922 0.07751
72.924 0.09689
72.926 0.12273
72.928 0.14856
72.93 0.06459
72.932 0.10335
72.934 0.08397
72.936 0.15502
72.938 0.09689
72.94 0.09043
72.942 0.10981
72.944 0.10981
72.946 0.10981
72.948 0.10335
72.95 0.07751
72.952 0.04521
72.954 0.07105
72.956 0.08397
72.958 0.05167
72.96 0.05813
72.962 0.05167
72.964 0.09689
72.966 0.05167
72.968 0.04521
72.97 0.02584
72.972 0.06459
72.974 0.02584
72.976 0.02584
72.978 0.04521
72.98 0.03876
72.982 0.07105
72.984 0.09043
72.986 0.09689
72.988 0.07105
72.99 0.12273
72.992 0.12273
72.994 0.16794
72.996 0.25191
72.998 0.26483
73 0.28421
73.002 0.34881
73.004 0.51676
73.006 0.38757
73.008 0.51676
73.01 0.59428
73.012 0.94311
73.014 0.9302
73.016 1.0271
73.018 1.28552
73.02 1.47287
73.022 1.52456
73.024 1.74423
73.026 1.83468
73.028 2.31928
73.03 2.39036
73.032 2.52605
73.034 3.10118
73.036 3.2692
73.038 3.62465
73.04 4.0189
73.042 3.98012
73.044 4.55537
73.046 4.8721
73.048 5.62845
73.05 5.60259
73.052 6.24264
73.054 6.64351
73.056 6.83102
73.058 7.39359
73.06 7.63933
73.062 8.68058
73.064 8.90697
73.066 9.73494
73.068 9.72848
73.07 10.01958
73.072 10.91888
73.074 11.14534
73.076 11.93477
73.078 12.4719
73.08 12.65958
73.082 13.13852
73.084 13.30681
73.086 14.60792
73.088 14.34897
73.09 14.81509
73.092 15.46253
73.094 15.17118
73.096 15.77332
73.098 16.12946
73.1 16.3043
73.102 16.92597
73.104 17.69669
73.106 17.19151
73.108 17.07493
73.11 16.76408
73.112 17.24331
73.114 17.41819
73.116 16.80294
73.118 17.07493
73.12 16.78351
73.122 16.42733
73.124 15.91577
73.126 16.05822
73.128 15.74742
73.13 16.01938
73.132 14.67914
73.134 14.77625
73.136 13.93467
73.138 14.16124
73.14 13.6175
73.142 13.1191
73.144 11.883
73.146 11.45593
73.148 10.90593
73.15 10.33659
73.152 10.23308
73.154 9.10749
73.156 8.59004
73.158 7.88508
73.16 7.18667
73.162 6.99914
73.164 6.31376
73.166 5.58966
73.168 4.72989
73.17 4.54245
73.172 4.08353
73.174 3.5988
73.176 3.05594
73.178 2.98485
73.18 2.29344
73.182 1.86699
73.184 1.783
73.186 1.42119
73.188 1.36304
73.19 1.0917
73.192 1.04002
73.194 0.98188
73.196 0.87206
73.198 0.94957
73.2 0.86559
73.202 0.91082
73.204 1.07232
73.206 1.19508
73.208 1.55687
73.21 1.53748
73.212 1.87345
73.214 1.92514
73.216 2.11252
73.218 2.32574
73.22 2.80392
73.222 2.82977
73.224 3.41138
73.226 3.21104
73.228 3.52771
73.23 3.81853
73.232 3.81208
73.234 3.90903
73.236 4.12877
73.238 4.57476
73.24 4.44548
73.242 4.95614
73.244 4.58769
73.246 4.58123
73.248 4.76868
73.25 4.81393
73.252 4.74928
73.254 4.40024
73.256 4.43256
73.258 4.19987
73.26 4.52952
73.262 4.20633
73.264 3.98658
73.266 3.96719
73.268 3.79268
73.27 3.46954
73.272 3.1141
73.274 3.17873
73.276 2.79746
73.278 2.78453
73.28 2.41621
73.282 2.32574
73.284 2.2482
73.286 1.91868
73.288 1.66024
73.29 1.70546
73.292 1.56979
73.294 1.47933
73.296 1.60209
73.298 1.40181
73.3 1.52456
73.302 1.53748
73.304 1.26614
73.306 1.62793
73.308 1.783
73.31 1.60856
73.312 1.83468
73.314 1.91868
73.316 1.99621
73.318 2.2999
73.32 2.25466
73.322 2.66175
73.324 2.78453
73.326 2.88147
73.328 3.00424
73.33 3.20458
73.332 3.28859
73.334 3.12056
73.336 3.54709
73.338 3.53417
73.34 3.6505
73.342 3.66989
73.344 3.65696
73.346 3.69574
73.348 3.78623
73.35 3.50832
73.352 3.36614
73.354 3.32736
73.356 3.13349
73.358 3.31444
73.36 3.46954
73.362 3.04301
73.364 3.02363
73.366 2.97839
73.368 2.71991
73.37 2.68114
73.372 2.30636
73.374 2.66175
73.376 2.33221
73.378 2.3839
73.38 2.21589
73.382 2.34513
73.384 2.00913
73.386 2.15775
73.388 2.1319
73.39 2.39036
73.392 2.3839
73.394 2.42913
73.396 2.39036
73.398 2.71991
73.4 2.64883
73.402 2.52605
73.404 2.87501
73.406 3.04948
73.408 3.2692
73.41 3.28213
73.412 3.30151
73.414 3.64404
73.416 3.61172
73.418 3.68928
73.42 3.85086
73.422 4.16755
73.424 4.07707
73.426 4.11584
73.428 4.54891
73.43 4.27744
73.432 4.36792
73.434 4.6394
73.436 4.75574
73.438 4.74928
73.44 4.45841
73.442 4.18694
73.444 3.92841
73.446 3.93488
73.448 4.02536
73.45 4.22572
73.452 4.04475
73.454 3.81208
73.456 3.98012
73.458 3.77329
73.46 3.8444
73.462 3.96073
73.464 3.79914
73.466 3.82501
73.468 4.14816
73.47 4.00597
73.472 4.33561
73.474 4.41317
73.476 4.67818
73.478 4.60708
73.48 4.86564
73.482 5.08542
73.484 5.46683
73.486 5.62845
73.488 6.081
73.49 6.16506
73.492 6.41722
73.494 6.46247
73.496 7.34187
73.498 7.13494
73.5 7.67166
73.502 8.38953
73.504 8.13084
73.506 8.86169
73.508 8.93932
73.51 9.0234
73.512 9.07514
73.514 9.56675
73.516 10.1231
73.518 10.2266
73.52 10.5048
73.522 10.73124
73.524 11.31356
73.526 11.5724
73.528 12.98966
73.53 13.63691
73.532 15.17765
73.534 17.14617
73.536 19.03756
73.538 22.38121
73.54 27.93188
73.542 36.21485
73.544 49.61592
73.546 72.86846
73.548 103.407
73.55 150.377
73.552 216.497
73.554 299.777
73.556 402.843
73.558 508.207
73.56 618.569
73.562 708.501
73.564 790.654
73.566 859.968
73.568 931.123
73.57 990.777
73.572 1050.34
73.574 1085.6
73.576 1093.27
73.578 1037.18
73.58 955.33
73.582 833.4054
73.584 703.615
73.586 574.391
73.588 451.49
73.59 342.818
73.592 250.205
73.594 178.625
73.596 123.113
73.598 85.2721
73.6 56.18679
73.602 37.42313
73.604 24.40381
73.606 15.52727
73.608 10.45304
73.61 6.99268
73.612 5.03371
73.614 3.58587
73.616 2.85562
73.618 2.22883
73.62 1.70546
73.622 1.64731
73.624 1.14339
73.626 0.97542
73.628 0.86559
73.63 0.67826
73.632 0.6718
73.634 0.36173
73.636 0.478
73.638 0.37465
73.64 0.32297
73.642 0.26483
73.644 0.18086
73.646 0.21315
73.648 0.23899
73.65 0.2067
73.652 0.1744
73.654 0.12918
73.656 0.15502
73.658 0.21315
73.66 0.09689
73.662 0.11627
73.664 0.1744
73.666 0.09043
73.668 0.09689
73.67 0.13564
73.672 0.10335
73.674 0.10335
73.676 0.10335
73.678 0.12273
73.68 0.07105
73.682 0.07105
73.684 0.08397
73.686 0.07751
73.688 0.08397
73.69 0.04521
73.692 0.05167
73.694 0.09689
73.696 0.08397
73.698 0.07105
73.7 0.08397
73.702 0.09043
73.704 0.06459
73.706 0.07751
73.708 0.06459
73.71 0.07751
73.712 0.03876
73.714 0.11627
73.716 0.02584
73.718 0.07105
73.72 0.05167
73.722 0.09043
73.724 0.02584
73.726 0.06459
73.728 0.09043
73.73 0.04521
73.732 0.05813
73.734 0.07751
73.736 0.03876
73.738 0.03876
73.74 0.05167
73.742 0.01938
73.744 0.04521
73.746 0.03876
73.748 0.01938
73.75 0.08397
73.752 0.03876
73.754 0.05167
73.756 0.04521
73.758 0.05167
73.76 0.03876
73.762 0.08397
73.764 0.01292
73.766 0.05167
73.768 0.03876
73.77 0.02584
73.772 0.03876
73.774 0.04521
73.776 0.05167
73.778 0.07105
73.78 0.06459
73.782 0.04521
73.784 0.05167
73.786 0.03876
73.788 0.08397